File: XRD_data/Cu_powder.ASC
5.00526 3633.8
5.11126 3506.67
5.21726 3494.43
5.32326 3479.4
5.42926 3412.03
5.53526 3405.64
5.64126 3378.35
5.74726 3242.65
5.85326 3227.69
5.95926 3200.79
6.06526 3286.1
6.17126 3202.09
6.27726 3121.77
6.38326 3173.56
6.48926 3158.36
6.59526 3047.11
6.70126 3062.78
6.80726 2944.24
6.91326 3026.03
7.01926 2977.84
7.12526 2993.71
7.23126 2887.88
7.33726 2894.36
7.44326 2874.13
7.54926 2917.64
7.65526 2739.46
7.76126 2785.35
7.86726 2791.61
7.97326 2756.63
8.07926 2737.86
8.18526 2680.79
8.29126 2582.34
8.39726 2590.67
8.50326 2552
8.60926 2674.54
8.71526 2633.22
8.82126 2522.23
8.92726 2499.82
9.03326 2547.51
9.13926 2417.26
9.24526 2485.09
9.35126 2356.31
9.45726 2377.92
9.56326 2406.1
9.66926 2357.97
9.77526 2421.63
9.88126 2376.62
9.98726 2331.83
10.0933 2202.73
10.1993 2233.93
10.3053 2314.22
10.4113 2176.58
10.5173 2261.04
10.6233 2245.35
10.7293 2219.01
10.8353 2151.39
10.9413 2128.39
11.0473 2200.12
11.1533 2146.25
11.2593 2089.86
11.3653 2141.74
11.4713 2103.5
11.5773 2085.89
11.6833 2126.66
11.7893 2049.08
11.8953 2060.84
12.0013 2111.66
12.1073 2095.88
12.2133 2037.4
12.3193 2014.9
12.4253 2047.09
12.5313 2076.71
12.6373 2072.87
12.7433 2066.02
12.8493 2055.12
12.9553 2023.31
13.0613 2017.26
13.1673 2032.83
13.2733 1999.17
13.3793 2006.52
13.4853 2078.69
13.5913 2005.57
13.6973 2078.29
13.8033 2026.13
13.9093 2043.07
14.0153 2015.94
14.1213 2063.31
14.2273 2036.73
14.3333 2031.6
14.4393 2013.1
14.5453 2005.64
14.6513 2031.3
14.7573 2025.17
14.8633 2012.44
14.9693 2024.35
15.0753 2087
15.1813 2012.46
15.2873 2012.82
15.3933 2028.82
15.4993 2095.61
15.6053 2088.53
15.7113 2024.06
15.8173 2083.56
15.9233 2075.07
16.0293 2099.27
16.1353 2108.16
16.2413 2056.59
16.3473 2153.34
16.4533 2056.62
16.5593 2122.67
16.6653 2111.5
16.7713 2088.08
16.8773 2142.68
16.9833 2120.15
17.0893 2100.59
17.1953 2122.51
17.3013 2145.3
17.4073 2169.09
17.5133 2135.46
17.6193 2101.34
17.7253 2120.08
17.8313 2231.95
17.9373 2155.68
18.0433 2152.42
18.1493 2119.75
18.2553 2160.47
18.3613 2091.97
18.4673 2059.26
18.5733 2112.1
18.6793 2174.52
18.7853 2179.21
18.8913 2168.54
18.9973 2151.49
19.1033 2167.1
19.2093 2160.41
19.3153 2181.21
19.4213 2183.68
19.5273 2256.75
19.6333 2156.36
19.7393 2214.7
19.8453 2186.64
19.9513 2297.85
20.0573 2273.75
20.1633 2212.92
20.2693 2270.42
20.3753 2218.42
20.4813 2178.67
20.5873 2251.34
20.6933 2308.5
20.7993 2288.12
20.9053 2260.4
21.0113 2254.47
21.1173 2244.67
21.2233 2262.61
21.3293 2348.19
21.4353 2256.98
21.5413 2331.79
21.6473 2369.16
21.7533 2322.85
21.8593 2357.43
21.9653 2319.43
22.0713 2340.99
22.1773 2325.39
22.2833 2418.52
22.3893 2356.01
22.4953 2425.91
22.6013 2467.87
22.7073 2417.42
22.8133 2395.6
22.9193 2402.57
23.0253 2429.72
23.1313 2456.41
23.2373 2506.01
23.3433 2470.67
23.4493 2455.62
23.5553 2458.99
23.6613 2398.39
23.7673 2501.62
23.8733 2549.29
23.9793 2599.71
24.0853 2499.14
24.1913 2510.01
24.2973 2510.17
24.4033 2536.22
24.5093 2523.02
24.6153 2537.05
24.7213 2512.26
24.8273 2561.52
24.9333 2540.23
25.0393 2584.24
25.1453 2618.53
25.2513 2563.83
25.3573 2572.84
25.4633 2612.61
25.5693 2633.5
25.6753 2677.06
25.7813 2664.72
25.8873 2652.74
25.9933 2707.8
26.0993 2669.38
26.2053 2663.14
26.3113 2689.1
26.4173 2667.43
26.5233 2659.25
26.6293 2638.61
26.7353 2674.26
26.8413 2634.04
26.9473 2736.62
27.0533 2640.39
27.1593 2700.36
27.2653 2755.38
27.3713 2671.27
27.4773 2691.06
27.5833 2755.03
27.6893 2835.01
27.7953 2689.93
27.9013 2758.17
28.0073 2797.3
28.1133 2815.82
28.2193 2762.33
28.3253 2809.06
28.4313 2884.35
28.5373 2807.16
28.6433 2778.48
28.7493 2797.94
28.8553 2825.64
28.9613 2784.31
29.0673 2795.72
29.1733 2879.97
29.2793 2837.83
29.3853 2885.73
29.4913 2890.22
29.5973 2835.04
29.7033 2846.17
29.8093 2813.72
29.9153 2879.62
30.0213 2835.01
30.1273 2918
30.2333 2882.02
30.3393 2937.32
30.4453 2929.67
30.5513 2923.03
30.6573 2933.22
30.7633 2932.57
30.8693 2962.66
30.9753 2959.46
31.0813 2978.57
31.1873 3002.27
31.2933 2978.82
31.3993 3032.85
31.5053 2994.51
31.6113 2925.11
31.7173 3008.11
31.8233 3069.57
31.9293 2996.7
32.0353 3095.47
32.1413 3078.18
32.2473 3062.46
32.3533 3122.48
32.4593 3071.52
32.5653 3046.42
32.6713 3137.95
32.7773 3101.13
32.8833 3024.58
32.9893 3126.17
33.0953 3163.07
33.2013 3062.83
33.3073 3148.19
33.4133 3146.77
33.5193 3140.32
33.6253 3187.16
33.7313 3173.01
33.8373 3138
33.9433 3277.58
34.0493 3205.93
34.1553 3264.4
34.2613 3181.46
34.3673 3211.61
34.4733 3253.91
34.5793 3188.72
34.6853 3214.7
34.7913 3268.54
34.8973 3219.1
35.0033 3216.68
35.1093 3245.58
35.2153 3212.54
35.3213 3267.7
35.4273 3284.57
35.5333 3326.35
35.6393 3314.35
35.7453 3377.35
35.8513 3310.46
35.9573 3352.04
36.0633 3311.21
36.1693 3304.25
36.2753 3408.68
36.3813 3373.98
36.4873 3401.91
36.5933 3370.88
36.6993 3378.55
36.8053 3354.96
36.9113 3369.64
37.0173 3405.74
37.1233 3325.48
37.2293 3474.07
37.3353 3451.62
37.4413 3465.72
37.5473 3494.27
37.6533 3467.24
37.7593 3422.64
37.8653 3456.46
37.9713 3495.32
38.0773 3423.69
38.1833 3424.08
38.2893 3514.2
38.3953 3477.76
38.5013 3533.63
38.6073 3468.9
38.7133 3442.86
38.8193 3490.85
38.9253 3534.89
39.0313 3538.15
39.1373 3566.76
39.2433 3538.01
39.3493 3595.79
39.4553 3529.24
39.5613 3572.33
39.6673 3567.06
39.7733 3570.05
39.8793 3637.48
39.9853 3595.68
40.0913 3611.41
40.1973 3687.02
40.3033 3589.78
40.4093 3614.17
40.5153 3639.03
40.6213 3652.88
40.7273 3646.58
40.8333 3659.33
40.9393 3648.13
41.0453 3643.95
41.1513 3696.79
41.2573 3699.7
41.3633 3621.67
41.4693 3611.16
41.5753 3691.86
41.6813 3753.18
41.7873 3725.98
41.8933 3738.52
41.9993 3736.1
42.1053 3730.3
42.2113 3684.31
42.3173 3765.94
42.4233 3769.31
42.5293 3810.68
42.6353 3778.27
42.7413 3868.18
42.8473 3839.53
42.9533 3777.36
43.0593 3749.93
43.1653 3792.02
43.2713 3739.23
43.3773 3673.97
43.4833 3755.52
43.5893 3802.83
43.6953 3748.94
43.8013 3844.33
43.9073 3767.83
44.0133 3797.08
44.1193 3774.31
44.2253 3850.3
44.3313 3904.66
44.4373 3850.32
44.5433 3903.7
44.6493 3954.05
44.7553 3829.31
44.8613 3860.42
44.9673 3766.99
45.0733 3911.16
45.1793 3856.65
45.2853 3935.38
45.3913 3878.11
45.4973 3889.82
45.6033 3924.45
45.7093 4010.24
45.8153 4293.72
45.9213 4366.88
46.0273 4020.07
46.1333 3899.09
46.2393 3899.43
46.3453 3953.9
46.4513 3948.23
46.5573 3895.45
46.6633 3998.74
46.7693 4021.65
46.8753 4006.29
46.9813 3910.29
47.0873 3929.24
47.1933 4086.64
47.2993 3935.16
47.4053 4080.36
47.5113 4032.2
47.6173 4040.37
47.7233 4000.98
47.8293 3944.11
47.9353 3986.76
48.0413 4014.43
48.1473 3959.55
48.2533 3997.15
48.3593 4101.22
48.4653 4016.17
48.5713 4006.18
48.6773 4019.75
48.7833 4066.84
48.8893 4094.67
48.9953 4010.95
49.1013 4085.77
49.2073 4130.87
49.3133 4087.21
49.4193 4098.53
49.5253 4144.64
49.6313 4201.31
49.7373 4283.24
49.8433 4356.22
49.9493 4311.88
50.0553 4221.19
50.1613 4305.84
50.2673 4288.07
50.3733 4359.82
50.4793 4615.69
50.5853 5120.66
50.6913 6287.42
50.7973 12722.4
50.9033 43253
51.0093 43045
51.1153 21099.3
51.2213 7070.12
51.3273 5226.26
51.4333 4686.78
51.5393 4520.94
51.6453 4334.12
51.7513 4393.01
51.8573 4344.57
51.9633 4387.42
52.0693 4354.89
52.1753 4338.39
52.2813 4328.39
52.3873 4308.33
52.4933 4225.64
52.5993 4265.97
52.7053 4214.69
52.8113 4257.87
52.9173 4216
53.0233 4248.74
53.1293 4298
53.2353 4350.63
53.3413 4346.84
53.4473 4466.4
53.5533 4459.72
53.6593 4399.05
53.7653 4283.7
53.8713 4153.35
53.9773 4338.13
54.0833 4272.39
54.1893 4339.94
54.2953 4288.48
54.4013 4268.27
54.5073 4303.21
54.6133 4368.99
54.7193 4250.22
54.8253 4300.04
54.9313 4315.92
55.0373 4282.35
55.1433 4289.88
55.2493 4302.05
55.3553 4371.31
55.4613 4283.65
55.5673 4307.23
55.6733 4378.6
55.7793 4298.53
55.8853 4356.07
55.9913 4355.96
56.0973 4408.76
56.2033 4280.16
56.3093 4346.44
56.4153 4286.72
56.5213 4333.95
56.6273 4384.74
56.7333 4373.21
56.8393 4400.92
56.9453 4304.45
57.0513 4368.24
57.1573 4497.11
57.2633 4411.56
57.3693 4407.44
57.4753 4409.41
57.5813 4422
57.6873 4534.14
57.7933 4455.7
57.8993 4466.58
58.0053 4530.19
58.1113 4471.94
58.2173 4492.55
58.3233 4514.68
58.4293 4565.26
58.5353 4611.02
58.6413 4592.35
58.7473 4637.58
58.8533 4679.89
58.9593 4708.14
59.0653 4927.58
59.1713 5421.28
59.2773 6557.73
59.3833 11795.8
59.4893 24260.7
59.5953 20314.2
59.7013 12847.2
59.8073 6858.46
59.9133 5410.82
60.0193 5088.59
60.1253 4793.37
60.2313 4750.63
60.3373 4688.68
60.4433 4711.79
60.5493 4657.18
60.6553 4654.42
60.7613 4606.88
60.8673 4620.77
60.9733 4554.31
61.0793 4641.61
61.1853 4708.78
61.2913 4668.28
61.3973 4608.95
61.5033 4636.79
61.6093 4574.96
61.7153 4613.32
61.8213 4531.14
61.9273 4569.21
62.0333 4688.64
62.1393 4595.08
62.2453 4634.17
62.3513 4726.69
62.4573 4627.42
62.5633 4698.01
62.6693 4587.24
62.7753 4682.37
62.8813 4666.13
62.9873 4657.27
63.0933 4734.35
63.1993 4653.24
63.3053 4821.34
63.4113 4734.22
63.5173 4727.37
63.6233 4755.15
63.7293 4686.24
63.8353 4756.61
63.9413 4783.95
64.0473 4729.22
64.1533 4771.62
64.2593 4750.94
64.3653 4616.65
64.4713 4753.51
64.5773 4741.81
64.6833 4776.54
64.7893 4792.32
64.8953 4778.09
65.0013 4727.89
65.1073 4790.73
65.2133 4753.19
65.3193 4785.24
65.4253 4786.7
65.5313 4774.44
65.6373 4808.82
65.7433 4782.89
65.8493 4853.4
65.9553 4829.49
66.0613 4687.73
66.1673 4773.43
66.2733 4778.55
66.3793 4787.77
66.4853 4811.21
66.5913 4833.8
66.6973 4790.86
66.8033 4930.06
66.9093 4787.16
67.0153 4873.14
67.1213 4815.7
67.2273 4803.01
67.3333 4829.25
67.4393 4847.17
67.5453 4817.95
67.6513 4858.9
67.7573 4946.99
67.8633 4942.35
67.9693 4956.04
68.0753 4894.99
68.1813 4834.11
68.2873 4927.33
68.3933 4948.25
68.4993 4811.05
68.6053 4914.3
68.7113 4935.2
68.8173 4914.39
68.9233 5019.65
69.0293 4965.01
69.1353 4896.7
69.2413 4939.52
69.3473 4946.07
69.4533 4973.29
69.5593 5007.19
69.6653 4932.08
69.7713 5025.25
69.8773 4928.61
69.9833 5068.45
70.0893 4995.24
70.1953 4910
70.3013 4912.51
70.4073 4983
70.5133 5076.15
70.6193 4983.57
70.7253 4998.73
70.8313 5100.42
70.9373 5032.38
71.0433 4976.83
71.1493 5077.46
71.2553 5037.1
71.3613 4982.02
71.4673 5052.22
71.5733 5086.47
71.6793 5118.69
71.7853 5047.71
71.8913 5028.77
71.9973 5069.97
72.1033 5051.06
72.2093 5153.24
72.3153 5117.27
72.4213 5178.22
72.5273 4991.83
72.6333 5095.19
72.7393 5183.7
72.8453 5044.13
72.9513 5126.76
73.0573 5139.08
73.1633 5211.62
73.2693 5165.54
73.3753 5050.11
73.4813 5202.88
73.5873 5259.23
73.6933 5205.59
73.7993 5198.89
73.9053 5149.11
74.0113 5202.84
74.1173 5298.02
74.2233 5203.8
74.3293 5269.91
74.4353 5200.01
74.5413 5250.37
74.6473 5279.1
74.7533 5206.79
74.8593 5260.42
74.9653 5312.27
75.0713 5225.41
75.1773 5234.29
75.2833 5236.31
75.3893 5248.64
75.4953 5307.06
75.6013 5372.72
75.7073 5386.96
75.8133 5285.9
75.9193 5216.18
76.0253 5384.54
76.1313 5369.58
76.2373 5338.38
76.3433 5230.27
76.4493 5370.14
76.5553 5374.79
76.6613 5379.56
76.7673 5404.64
76.8733 5400.3
76.9793 5390.46
77.0853 5286.59
77.1913 5375.82
77.2973 5382.32
77.4033 5436.4
77.5093 5359.72
77.6153 5437.99
77.7213 5432.97
77.8273 5394.19
77.9333 5458.68
78.0393 5510.65
78.1453 5477.2
78.2513 5508.11
78.3573 5569
78.4633 5518.5
78.5693 5472.95
78.6753 5491.98
78.7813 5735.8
78.8873 5619.37
78.9933 5711.13
79.0993 5547.75
79.2053 5599.28
79.3113 5480.06
79.4173 5546.99
79.5233 5602.21
79.6293 5551.38
79.7353 5551.49
79.8413 5555.58
79.9473 5707.64
80.0533 5503.37
80.1593 5612.07
80.2653 5535.79
80.3713 5604.35
80.4773 5566
80.5833 5605.15
80.6893 5641.77
80.7953 5607.99
80.9013 5731.57
81.0073 5638.93
81.1133 5659.09
81.2193 5616.69
81.3253 5688.56
81.4313 5568.38
81.5373 5608.36
81.6433 5545.67
81.7493 5689.89
81.8553 5689.86
81.9613 5754.84
82.0673 5670.47
82.1733 5746.97
82.2793 5732.46
82.3853 5771.45
82.4913 5726.04
82.5973 5749.21
82.7033 5719.96
82.8093 5682.39
82.9153 5690.88
83.0213 5788.46
83.1273 5737.87
83.2333 5655.61
83.3393 5718.75
83.4453 5763.96
83.5513 5774.31
83.6573 5707.83
83.7633 5830.24
83.8693 5832.32
83.9753 5751.98
84.0813 5836.37
84.1873 5820.03
84.2933 5819.04
84.3993 5837.59
84.5053 5825.71
84.6113 5822.59
84.7173 5805.11
84.8233 5849.09
84.9293 5814.01
85.0353 5762.86
85.1413 5843.71
85.2473 5868.79
85.3533 5940.16
85.4593 5856.96
85.5653 5843.85
85.6713 5923.74
85.7773 5907.33
85.8833 5882.27
85.9893 5753.96
86.0953 5934.83
86.2013 5922.93
86.3073 6000.01
86.4133 5884.62
86.5193 6001.2
86.6253 5906.89
86.7313 5969.36
86.8373 5960.24
86.9433 5886.44
87.0493 5880.06
87.1553 6020.74
87.2613 5922.52
87.3673 6019.1
87.4733 6073.46
87.5793 6098.07
87.6853 6045.82
87.7913 5982.44
87.8973 6098.49
88.0033 6154.33
88.1093 6153.49
88.2153 6241.62
88.3213 6271.33
88.4273 6333.63
88.5333 6595.37
88.6393 6767.64
88.7453 7580.14
88.8513 10832.8
88.9573 19321.2
89.0633 15832.8
89.1693 13674
89.2753 12213.5
89.3813 8241.73
89.4873 6931.76
89.5933 6542.26
89.6993 6398.78
89.8053 6300.5
89.9113 6210.6
90.0173 6225.67
90.1233 6273.05
90.2293 6119.73
90.3353 6128.26
90.4413 6141.49
90.5473 6205.97
90.6533 6139.22
90.7593 6090.38
90.8653 6240.71
90.9713 6279.89
91.0773 6124.48
91.1833 6189.75
91.2893 6211.07
91.3953 6277.23
91.5013 6292.75
91.6073 6227.09
91.7133 6183.52
91.8193 6209.04
91.9253 6229.32
92.0313 6158.92
92.1373 6215.14
92.2433 6246.5
92.3493 6106.09
92.4553 6274.01
92.5613 6282.87
92.6673 6139.48
92.7733 6273.44
92.8793 6277.15
92.9853 6288.39
93.0913 6258.85
93.1973 6256.88
93.3033 6280.08
93.4093 6252.64
93.5153 6255.73
93.6213 6306.21
93.7273 6307.65
93.8333 6319.33
93.9393 6388.34
94.0453 6286.49
94.1513 6410.83
94.2573 6308.35
94.3633 6325.18
94.4693 6365.11
94.5753 6385.78
94.6813 6498.07
94.7873 6245.28
94.8933 6311.26
94.9993 6428.63
95.1053 6348.43
95.2113 6348.29
95.3173 6446.56
95.4233 6511.51
95.5293 6383.68
95.6353 6346.28
95.7413 6508.09
95.8473 6472.54
95.9533 6419.14
96.0593 6672.82
96.1653 6682.2
96.2713 6662.33
96.3773 6406.64
96.4833 6440.29
96.5893 6457.6
96.6953 6458.74
96.8013 6621.5
96.9073 6571.98
97.0133 6519.04
97.1193 6439.84
97.2253 6612
97.3313 6537.93
97.4373 6430.1
97.5433 6659.38
97.6493 6532.02
97.7553 6589.69
97.8613 6496.14
97.9673 6511.46
98.0733 6591.85
98.1793 6668.33
98.2853 6615.33
98.3913 6644.05
98.4973 6637.96
98.6033 6486.58
98.7093 6643.83
98.8153 6712.66
98.9213 6567.32
99.0273 6616.97
99.1333 6601.34
99.2393 6609.87
99.3453 6617.87
99.4513 6604.28
99.5573 6582.33
99.6633 6564.88
99.7693 6655.15
99.8753 6669.22
99.9813 6695.84
100.087 6652.31
100.193 6681.95
100.299 6567.62
100.405 6634.39
100.511 6630.89
100.617 6647.55
100.723 6692.18
100.829 6724.64
100.935 6647.48
101.041 6713.7
101.147 6705.59
101.253 6722.38
101.359 6790.47
101.465 6744.97
101.571 6798.17
101.677 6654.89
101.783 6775.79
101.889 6786.36
101.995 6862.16
102.101 6792.2
102.207 6689.39
102.313 6807.48
102.419 6878.37
102.525 6886.03
102.631 6816.11
102.737 6813.3
102.843 6795.45
102.949 6860.6
103.055 6771.43
103.161 6927.4
103.267 6808.21
103.373 6921.9
103.479 6870.88
103.585 6837.25
103.691 6815.54
103.797 6957.68
103.903 6918.97
104.009 6815.7
104.115 6846.26
104.221 6853.4
104.327 6868.38
104.433 6931.47
104.539 6807.57
104.645 6835.63
104.751 6886.48
104.857 6998.94
104.963 6932.29
105.069 6987.88
105.175 6932.15
105.281 7010.98
105.387 6983.17
105.493 6971.25
105.599 6995.38
105.705 7018.9
105.811 7058.62
105.917 7016.13
106.023 7029.17
106.129 7013.99
106.235 7101.36
106.341 7051.99
106.447 7068.37
106.553 7091.34
106.659 7145.03
106.765 7095.66
106.871 7142.01
106.977 7126.63
107.083 7151.33
107.189 7197.52
107.295 7172.3
107.401 7094.84
107.507 7055.76
107.613 7125.37
107.719 7164.66
107.825 7166.21
107.931 7320.3
108.037 7111.34
108.143 7281.94
108.249 7289.32
108.355 7209.97
108.461 7263.7
108.567 7321.59
108.673 7297.63
108.779 7346.4
108.885 7220.29
108.991 7327.77
109.097 7357.41
109.203 7411.26
109.309 7356.75
109.415 7382.24
109.521 7708.08
109.627 7752.08
109.733 7922.38
109.839 8072.25
109.945 8329.07
110.051 8840.49
110.157 10219.8
110.263 13233.4
110.369 23426.6
110.475 24783.6
110.581 15980.6
110.687 16006.6
110.793 18533.8
110.899 12702.8
111.005 9875.38
111.111 8746.35
111.217 8166.23
111.323 7821.2
111.429 7744.27
111.535 7666.12
111.641 7587.76
111.747 7629.02
111.853 7506.37
111.959 7480.03
112.065 7465.19
112.171 7563.33
112.277 7478
112.383 7411.95
112.489 7448.37
112.595 7443.73
112.701 7457.66
112.807 7533.54
112.913 7534.07
113.019 7518.04
113.125 7469.73
113.231 7607.04
113.337 7445.18
113.443 7447.94
113.549 7591.13
113.655 7494.27
113.761 7509.7
113.867 7466.32
113.973 7603.62
114.079 7565.08
114.185 7510.04
114.291 7544.94
114.397 7540.77
114.503 7488.48
114.609 7525.32
114.715 7519.17
114.821 7673.87
114.927 7680.01
115.033 7598.39
115.139 7625.76
115.245 7723.11
115.351 7707.17
115.457 7589.46
115.563 7454.65
115.669 7623.62
115.775 7696.53
115.881 7601.96
115.987 7646.8
116.093 7624.01
116.199 7632.63
116.305 7712.11
116.411 7615.08
116.517 7649.35
116.623 7703.78
116.729 7710.04
116.835 7680.31
116.941 7758.47
117.047 7707.99
117.153 7755.05
117.259 7829.54
117.365 7876.84
117.471 7935.1
117.577 7917.82
117.683 7986.47
117.789 8242.74
117.895 8916.8
118.001 11323.4
118.107 14846.9
118.213 11767.7
118.319 9993.64
118.425 10543.1
118.531 11364.6
118.637 9731.79
118.743 8649.84
118.849 8219.26
118.955 7980.43
119.061 7873.91
119.167 7884.71
119.273 7859.33
119.379 7774.7
119.485 7789.28
119.591 7893.73
119.697 7889.88
119.803 0
119.909 0
119.962 0